{
    "resourceType": "Bundle",
    "type": "transaction",
    "entry": [
        {
            "fullUrl": "https://r4.ontoserver.csiro.au/fhir/ActivityDefinition/id1591803097665",
            "resource": {
                "resourceType": "ActivityDefinition",
                "id": "id1591803097665",
                "name": "InformedConsent",
                "title": "Informed Consent",
                "status": "active",
                "kind": "ServiceRequest"
            },
            "request": {
                "method": "PUT",
                "url": "ActivityDefinition/id1591803097665"
            }
        },
        {
            "fullUrl": "https://r4.ontoserver.csiro.au/fhir/ActivityDefinition/id1591803194262",
            "resource": {
                "resourceType": "ActivityDefinition",
                "id": "id1591803194262",
                "name": "SubjectID",
                "title": "Subject ID",
                "status": "active"
            },
            "request": {
                "method": "PUT",
                "url": "ActivityDefinition/id1591803194262"
            }
        },
        {
            "fullUrl": "https://r4.ontoserver.csiro.au/fhir/ActivityDefinition/id1591803244895",
            "resource": {
                "resourceType": "ActivityDefinition",
                "id": "id1591803244895",
                "name": "Hatchinski",
                "title": "Hachinski ≤4",
                "status": "active"
            },
            "request": {
                "method": "PUT",
                "url": "ActivityDefinition/id1591803244895"
            }
        },
        {
            "fullUrl": "https://r4.ontoserver.csiro.au/fhir/ActivityDefinition/id1591803399292",
            "resource": {
                "resourceType": "ActivityDefinition",
                "id": "id1591803399292",
                "name": "MMSETenThroughTwentyThree",
                "title": "MMSE 10-23",
                "status": "active"
            },
            "request": {
                "method": "PUT",
                "url": "ActivityDefinition/id1591803399292"
            }
        },
        {
            "fullUrl": "https://r4.ontoserver.csiro.au/fhir/ActivityDefinition/id1591803541868",
            "resource": {
                "resourceType": "ActivityDefinition",
                "id": "id1591803541868",
                "name": "PhysicalExamination",
                "title": "Physical examination",
                "status": "active",
                "code": {
                    "coding": [
                        {
                            "system": "https://loinc.org/",
                            "code": "11384-5",
                            "display": "Physical examination by organ systems"
                        },
                        {
                            "system": "https://cdisc.org/sdtm/datasets",
                            "code": "PE",
                            "display": "Physical Examination"
                        },
                        {
                            "system": "https://cdisc.org/cdash/domains",
                            "code": "PE",
                            "display": "Physical Examination"
                        }
                    ],
                    "text": "Physical examination by organ systems"
                }
            },
            "request": {
                "method": "PUT",
                "url": "ActivityDefinition/id1591803541868"
            }
        },
        {
            "fullUrl": "https://r4.ontoserver.csiro.au/fhir/ActivityDefinition/id1591803588775",
            "resource": {
                "resourceType": "ActivityDefinition",
                "id": "id1591803588775",
                "name": "MedicalHistory",
                "title": "Relevant Medical History",
                "status": "active"
            },
            "request": {
                "method": "PUT",
                "url": "ActivityDefinition/id1591803588775"
            }
        },
        {
            "fullUrl": "https://r4.ontoserver.csiro.au/fhir/ActivityDefinition/id1591803820474",
            "resource": {
                "resourceType": "ActivityDefinition",
                "id": "id1591803820474",
                "name": "HabitsSmoking",
                "title": "HABITS : SMOKING",
                "status": "active"
            },
            "request": {
                "method": "PUT",
                "url": "ActivityDefinition/id1591803820474"
            }
        },
        {
            "fullUrl": "https://r4.ontoserver.csiro.au/fhir/ActivityDefinition/id1591803832824",
            "resource": {
                "resourceType": "ActivityDefinition",
                "id": "id1591803832824",
                "name": "HabitsAlcohol",
                "title": "HABITS : ALCOHOL",
                "status": "active"
            },
            "request": {
                "method": "PUT",
                "url": "ActivityDefinition/id1591803832824"
            }
        },
        {
            "fullUrl": "https://r4.ontoserver.csiro.au/fhir/ActivityDefinition/id1591803848479",
            "resource": {
                "resourceType": "ActivityDefinition",
                "id": "id1591803848479",
                "name": "HabitsCaffeine",
                "title": "HABITS : CAFFEINE",
                "status": "active"
            },
            "request": {
                "method": "PUT",
                "url": "ActivityDefinition/id1591803848479"
            }
        },
        {
            "fullUrl": "https://r4.ontoserver.csiro.au/fhir/ActivityDefinition/id1591804240858",
            "resource": {
                "resourceType": "ActivityDefinition",
                "id": "id1591804240858",
                "name": "ChestXRay",
                "title": "Chest x-ray",
                "status": "active"
            },
            "request": {
                "method": "PUT",
                "url": "ActivityDefinition/id1591804240858"
            }
        },
        {
            "fullUrl": "https://r4.ontoserver.csiro.au/fhir/ActivityDefinition/id1591804628590",
            "resource": {
                "resourceType": "ActivityDefinition",
                "id": "id1591804628590",
                "name": "BloodPressure",
                "title": "Blood Pressure",
                "status": "active"
            },
            "request": {
                "method": "PUT",
                "url": "ActivityDefinition/id1591804628590"
            }
        },
        {
            "fullUrl": "https://r4.ontoserver.csiro.au/fhir/ActivityDefinition/id1591804628585",
            "resource": {
                "resourceType": "ActivityDefinition",
                "id": "id1591804628585",
                "name": "VitalSigns",
                "title": "Vital Signs/Temperature",
                "status": "active",
                "code": {
                    "coding": [
                        {
                            "system": "https://loinc.org",
                            "code": "29274-8",
                            "display": "Vital signs measurements"
                        },
                        {
                            "system": "https://cdisc.org/sdtm/datasets",
                            "code": "VS",
                            "display": "Vital Signs"
                        },
                        {
                            "system": "https://cdisc.org/cdash/domains",
                            "code": "VS",
                            "display": "Vital Signs"
                        }
                    ],
                    "text": "Vital signs measurements"
                }
            },
            "request": {
                "method": "PUT",
                "url": "ActivityDefinition/id1591804628585"
            }
        },
        {
            "fullUrl": "https://r4.ontoserver.csiro.au/fhir/ActivityDefinition/id1591804644670",
            "resource": {
                "resourceType": "ActivityDefinition",
                "id": "id1591804644670",
                "name": "Temperature",
                "title": "Temperature",
                "status": "active",
                "code": {
                    "coding": [
                        {
                            "system": "http://loinc.org",
                            "code": "8310-5",
                            "display": "Body temperature"
                        },
                        {
                            "system": "https://cdisc.org/valueDomains/VSTESTCD",
                            "code": "TEMP",
                            "display": "Body Temperature"
                        }
                    ],
                    "text": "Temperature"
                }
            },
            "request": {
                "method": "PUT",
                "url": "ActivityDefinition/id1591804644670"
            }
        },
        {
            "fullUrl": "https://r4.ontoserver.csiro.au/fhir/ActivityDefinition/id1591804655189",
            "resource": {
                "resourceType": "ActivityDefinition",
                "id": "id1591804655189",
                "name": "Pulse",
                "title": "Pulse",
                "status": "active",
                "code": {
                    "coding": [
                        {
                            "system": "http://loinc.org",
                            "code": "8867-4",
                            "display": "Heart rate"
                        },
                        {
                            "system": "https://cdisc.org/valueDomains/VSTESTCD",
                            "code": "PULSE",
                            "display": "Heart rate"
                        }
                    ],
                    "text": "Heart rate"
                }
            },
            "request": {
                "method": "PUT",
                "url": "ActivityDefinition/id1591804655189"
            }
        },
        {
            "fullUrl": "https://r4.ontoserver.csiro.au/fhir/ActivityDefinition/id1591804660447",
            "resource": {
                "resourceType": "ActivityDefinition",
                "id": "id1591804660447",
                "name": "Height",
                "title": "Height",
                "status": "active"
            },
            "request": {
                "method": "PUT",
                "url": "ActivityDefinition/id1591804660447"
            }
        },
        {
            "fullUrl": "https://r4.ontoserver.csiro.au/fhir/ActivityDefinition/id1591804675432",
            "resource": {
                "resourceType": "ActivityDefinition",
                "id": "id1591804675432",
                "name": "Weight",
                "title": "Weight",
                "status": "active"
            },
            "request": {
                "method": "PUT",
                "url": "ActivityDefinition/id1591804675432"
            }
        },
        {
            "fullUrl": "https://r4.ontoserver.csiro.au/fhir/ActivityDefinition/id1591804733049",
            "resource": {
                "resourceType": "ActivityDefinition",
                "id": "id1591804733049",
                "name": "Electrocardiogram",
                "title": "Electrocardiogram",
                "status": "active"
            },
            "request": {
                "method": "PUT",
                "url": "ActivityDefinition/id1591804733049"
            }
        },
        {
            "fullUrl": "https://r4.ontoserver.csiro.au/fhir/ActivityDefinition/id1591804766679",
            "resource": {
                "resourceType": "ActivityDefinition",
                "id": "id1591804766679",
                "name": "PlaceboTTSTest",
                "title": "Placebo TTS Test",
                "status": "active"
            },
            "request": {
                "method": "PUT",
                "url": "ActivityDefinition/id1591804766679"
            }
        },
        {
            "fullUrl": "https://r4.ontoserver.csiro.au/fhir/ActivityDefinition/id1591804787169",
            "resource": {
                "resourceType": "ActivityDefinition",
                "id": "id1591804787169",
                "name": "CTScan",
                "title": "Computerised Tomography Scan",
                "status": "active"
            },
            "request": {
                "method": "PUT",
                "url": "ActivityDefinition/id1591804787169"
            }
        },
        {
            "fullUrl": "https://r4.ontoserver.csiro.au/fhir/ActivityDefinition/id1591804800632",
            "resource": {
                "resourceType": "ActivityDefinition",
                "id": "id1591804800632",
                "name": "PriorMedications",
                "title": "Prior Relevant Medications",
                "status": "active"
            },
            "request": {
                "method": "PUT",
                "url": "ActivityDefinition/id1591804800632"
            }
        },
        {
            "fullUrl": "https://r4.ontoserver.csiro.au/fhir/ObservationDefinition/id1591804842916",
            "resource": {
                "resourceType": "ObservationDefinition",
                "id": "id1591804842916",
                "category": "laboratory",
                "code": {
                    "coding": [
                        {
                            "system": "http://loinc.org",
                            "code": "15074-8",
                            "display": "Glucose [Moles/volume] in Blood"
                        }
                    ]
                },
                "quantitativeDetails":{
                    "customaryUnit": {
                        "coding": [ 
                            {
                            "system": "http://unitsofmeasure.org",
                            "code": "mmol/l"
                            }],
                            "display": "mmol/l"
                        },
                    "unit":{

                    }
                }
            }
        },
        {
            "fullUrl": "https://r4.ontoserver.csiro.au/fhir/ActivityDefinition/id1591804842915",
            "resource": {
                "resourceType": "ActivityDefinition",
                "id": "id1591804842915",
                "name": "SafetyLabBloodCollection",
                "title": "Safety Laboratory Blood Collection",
                "status": "active",
                "observationRequirement": [
                    {
                        "reference": "id1591804842916",
                        "type": "ObservationDefinition"
                    }
                ]
            },
            "request": {
                "method": "PUT",
                "url": "ActivityDefinition/id1591804842915"
            }
        },
        {
            "fullUrl": "https://r4.ontoserver.csiro.au/fhir/ActivityDefinition/id1591804856820",
            "resource": {
                "resourceType": "ActivityDefinition",
                "id": "id1591804856820",
                "name": "SafetyLabUrineCollection",
                "title": "Safety Lab Urinalysis Collection",
                "status": "active"
            },
            "request": {
                "method": "PUT",
                "url": "ActivityDefinition/id1591804856820"
            }
        },
        {
            "fullUrl": "https://r4.ontoserver.csiro.au/fhir/PlanDefinition/pd-Screening",
            "resource": {
                "resourceType": "PlanDefinition",
                "id": "pd-Screening",
                "name": "Screening",
                "title": "Screening Visit (Day -14)",
                "status": "active",
                "action": [
                    {
                        "definitionCanonical": {
                            "reference": "ActivityDefinition/id1591803097665",
                            "display": "Informed Consent"
                        },
                        "title": "Informed Consent"
                    },
                    {
                        "title": "Subject Identifier",
                        "definitionCanonical": {
                            "reference": "ActivityDefinition/id1591803194262",
                            "display": "Subject Identifier"
                        },
                        "relatedAction": {
                            "actionId": "ActivityDefinition/id1591803097665",
                            "relationship": "after",
                            "offsetDuration": {
                                "value": 1,
                                "unit": "h"
                            }
                        }
                    },
                    {
                        "title": "Hatchinski LLT",
                        "definitionCanonical": {
                            "reference": "ActivityDefinition/id1591803244895",
                            "display": "Hatchinski LLT"
                        },
                        "relatedAction": {
                            "actionId": "ActivityDefinition/id1591803194262",
                            "relationship": "after"
                        }
                    },
                    {
                        "title": "MMSE",
                        "definitionCanonical": {
                            "reference": "ActivityDefinition/id1591803399292",
                            "display": "MMSE"
                        },
                        "relatedAction": {
                            "actionId": "ActivityDefinition/id1591803244895",
                            "relationship": "after"
                        }
                    },
                    {
                        "title": "Physical Examination",
                        "definitionCanonical": {
                            "reference": "ActivityDefinition/id1591803541868"
                        },
                        "relatedAction": {
                            "actionId": "ActivityDefinition/id1591803399292",
                            "relationship": "after"
                        }
                    },
                    {
                        "title": "Relevant Medical History",
                        "definitionCanonical": {
                            "reference": "ActivityDefinition/id1591803541868"
                        },
                        "relatedAction": {
                            "actionId": "ActivityDefinition/id1591803399292",
                            "relationship": "after"
                        }
                    },
                    {
                        "title": "Habits - Smoking",
                        "definitionCanonical": {
                            "reference": "ActivityDefinition/id1591803820474"
                        },
                        "relatedAction": {
                            "actionId": "ActivityDefinition/id1591803541868",
                            "relationship": "after"
                        }
                    },
                    {
                        "title": "Habits - Alcohol",
                        "definitionCanonical": {
                            "reference": "ActivityDefinition/id1591803832824"
                        },
                        "relatedAction": {
                            "actionId": "ActivityDefinition/id1591803820474",
                            "relationship": "concurrent-with-start "
                        }
                    },
                    {
                        "title": "Habits - Caffeine",
                        "definitionCanonical": {
                            "reference": "ActivityDefinition/id1591803848479"
                        },
                        "relatedAction": {
                            "actionId": "ActivityDefinition/id1591803820474",
                            "relationship": "concurrent-with-start"
                        }
                    },
                    {
                        "definitionCanonical": {
                            "reference": "ActivityDefinition/id1591804240858"
                        },
                        "title": "Chest X-ray",
                        "relatedAction": {
                            "actionId": "ActivityDefinition/id1591803848479",
                            "relationship": "after"
                        }
                    },
                    {
                        "definitionCanonical": {
                            "reference": "ActivityDefinition/id1591804628585"
                        },
                        "title": "Vital Signs/Temperature",
                        "relatedAction": {
                            "actionId": "ActivityDefinition/id1591804240858",
                            "relationship": "after",
                            "offsetDuration": {
                                "value": 2,
                                "unit": "h"
                            }
                        },
                        "action": [
                            {
                                "definitionCanonical": {
                                    "reference": "ActivityDefinition/id1591804628590"
                                },
                                "title": "Blood Pressure"
                            },
                            {
                                "definitionCanonical": {
                                    "reference": "ActivityDefinition/id1591804655189"
                                },
                                "title": "Pulse",
                                "relatedAction": {
                                    "actionId": "ActivityDefinition/id1591804628590",
                                    "relationship": "concurrent"
                                }
                            },
                            {
                                "definitionCanonical": {
                                    "reference": "ActivityDefinition/id1591804644670"
                                },
                                "title": "Temperature",
                                "relatedAction": {
                                    "actionId": "ActivityDefinition/id1591804628590",
                                    "relationship": "concurrent-with-start"
                                }
                            },
                            {
                                "definitionCanonical": {
                                    "reference": "ActivityDefinition/id1591804660447"
                                },
                                "title": "Height",
                                "relatedAction": {
                                    "actionId": "ActivityDefinition/id1591804644670",
                                    "relationship": "after"
                                }
                            },
                            {
                                "definitionCanonical": {
                                    "reference": "ActivityDefinition/id1591804675432"
                                },
                                "title": "Weight",
                                "relatedAction": {
                                    "actionId": "ActivityDefinition/id1591804660447",
                                    "relationship": "concurrent"
                                }
                            }
                        ]
                    },
                    {
                        "definitionCanonical": {
                            "reference": "ActivityDefinition/id1591804733049"
                        },
                        "title": "ECG",
                        "relatedAction": {
                            "actionId": "ActivityDefinition/id1591804628585",
                            "relationship": "after",
                            "offsetDuration": {
                                "value": 30,
                                "unit": "m"
                            }
                        }
                    },
                    {
                        "definitionCanonical": {
                            "reference": "ActivityDefinition/id1591804766679"
                        },
                        "title": "Placebo TTS Test",
                        "relatedAction": {
                            "actionId": "ActivityDefinition/id1591804733049",
                            "relationship": "after",
                            "offsetDuration": {
                                "value": 30,
                                "unit": "m"
                            }
                        }
                    },
                    {
                        "definitionCanonical": {
                            "reference": "ActivityDefinition/id1591804787169"
                        },
                        "title": "CAT Scan",
                        "relatedAction": {
                            "actionId": "ActivityDefinition/id1591804766679",
                            "relationship": "after"
                        }
                    },
                    {
                        "definitionCanonical": {
                            "reference": "ActivityDefinition/id1591804800632"
                        },
                        "title": "Prior Relevant Medication",
                        "relatedAction": {
                            "actionId": "ActivityDefinition/id1591804787169",
                            "relationship": "after"
                        }
                    },
                    {
                        "definitionCanonical": {
                            "reference": "ActivityDefinition/id1591804842915"
                        },
                        "title": "Safety Laboratory Blood Collection",
                        "relatedAction": {
                            "actionId": "ActivityDefinition/id1591804800632",
                            "relationship": "after"
                        }
                    },
                    {
                        "definitionCanonical": {
                            "reference": "ActivityDefinition/id1591804856820"
                        },
                        "title": "Safety Laboratory Urinalysis Collection"
                    }
                ]
            },
            "request": {
                "method": "PUT",
                "url": "PlanDefintion/pd-Screening"
            }
        }
    ]
}