{
    "resourceType": "Bundle",
    "type": "transaction",
    "entry": [
        {
            "fullUrl": "http://hapi.fhir.org/baseR4/PlanDefinition/id1588173288339",
            "resource": {
                "resourceType": "PlanDefinition",
                "id": "id1588173288339",
                "action": [
                    {
                        "title": "Screening",
                        "definition[x]": {
                            "reference": "PlanDefinition/id1588173353807",
                            "display": "Screening"
                        },
                        "definitionCanonical": {
                            "reference": "PlanDefinition/id1588173353807",
                            "display": "Screening"
                        }
                    },
                    {
                        "title": "Treatment",
                        "definition[x]": {
                            "reference": "PlanDefinition/id1588173408961",
                            "display": "Treatment"
                        },
                        "definitionCanonical": {
                            "reference": "PlanDefinition/id1588173408961",
                            "display": "Treatment"
                        }
                    }
                ]
            },
            "request": {
                "method": "PUT",
                "url": "PlanDefinition/id1588173288339"
            }
        },
        {
            "fullUrl": "http://hapi.fhir.org/baseR4/PlanDefinition/id1588173353807",
            "resource": {
                "resourceType": "PlanDefinition",
                "id": "id1588173353807"
            },
            "request": {
                "method": "PUT",
                "url": "PlanDefinition/id1588173353807"
            }
        },
        {
            "fullUrl": "http://hapi.fhir.org/baseR4/PlanDefinition/id1588173408961",
            "resource": {
                "resourceType": "PlanDefinition",
                "id": "id1588173408961",
                "action": [
                    {
                        "title": "Early Termination",
                        "definition[x]": {
                            "reference": "PlanDefinition/id1588173687606",
                            "display": "Early Termination"
                        },
                        "definitionCanonical": {
                            "reference": "PlanDefinition/id1588173687606",
                            "display": "Early Termination"
                        }
                    },
                    {
                        "title": "Adverse Event",
                        "definition[x]": {
                            "reference": "PlanDefinition/id1588173811358",
                            "display": "Serious Adverse Event"
                        },
                        "definitionCanonical": {
                            "reference": "PlanDefinition/id1588173811358",
                            "display": "Serious Adverse Event"
                        }
                    },
                    {
                        "title": "Hepatic Functionality Upper Level",
                        "definition[x]": {
                            "reference": "PlanDefinition/id1588174459273",
                            "display": "Tier 1 Liver Function Abnormal"
                        },
                        "definitionCanonical": {
                            "reference": "PlanDefinition/id1588174459273",
                            "display": "Tier 1 Liver Function Abnormal"
                        }
                    },
                    {
                        "title": "Tier 2 Liver function Lab Abnormal",
                        "definition[x]": {
                            "reference": "PlanDefinition/id1588174525409",
                            "display": "Tier 2 Liver Function Abnormal"
                        },
                        "definitionCanonical": {
                            "reference": "PlanDefinition/id1588174525409",
                            "display": "Tier 2 Liver Function Abnormal"
                        }
                    },
                    {
                        "title": "Day 14",
                        "definition[x]": {
                            "reference": "PlanDefinition/id1588175143891",
                            "display": "Day 14 Study Visit"
                        },
                        "definitionCanonical": {
                            "reference": "PlanDefinition/id1588175143891",
                            "display": "Day 14 Study Visit"
                        }
                    }
                ]
            },
            "request": {
                "method": "PUT",
                "url": "PlanDefinition/id1588173408961"
            }
        },
        {
            "fullUrl": "http://hapi.fhir.org/baseR4/PlanDefinition/id1588173687606",
            "resource": {
                "resourceType": "PlanDefinition",
                "id": "id1588173687606",
                "identifier": [
                    {
                        "value": "http://example.org/studies/H2Q-MC-LZZT",
                        "system": "StudyEventET"
                    }
                ],
                "name": "Early Termination"
            },
            "request": {
                "method": "PUT",
                "url": "PlanDefinition/id1588173687606"
            }
        },
        {
            "fullUrl": "http://hapi.fhir.org/baseR4/PlanDefinition/id1588173811358",
            "resource": {
                "resourceType": "PlanDefinition",
                "id": "id1588173811358",
                "identifier": [
                    {
                        "value": "http://example.org/studies/H2Q-MC-LZZT",
                        "system": "StudyEventSAE"
                    }
                ],
                "name": "Serious Adverse Event",
                "action": [
                    {
                        "title": "Date of SAE",
                        "definition[x]": {
                            "reference": "ActivityDefinition/id1588174048575",
                            "display": "Date of SAE"
                        },
                        "definitionCanonical": {
                            "reference": "ActivityDefinition/id1588174048575",
                            "display": "Date of SAE"
                        }
                    },
                    {
                        "title": "Adverse Event Assessment",
                        "definition[x]": {
                            "reference": "ActivityDefinition/id1588174094857",
                            "display": "Adverse Event Assessment"
                        },
                        "definitionCanonical": {
                            "reference": "ActivityDefinition/id1588174094857",
                            "display": "Adverse Event Assessment"
                        }
                    },
                    {
                        "title": "Gather Medication Records",
                        "definition[x]": {
                            "reference": "ActivityDefinition/id1589384657758",
                            "display": "MedicationRecord"
                        },
                        "definitionCanonical": {
                            "reference": "ActivityDefinition/id1589384657758",
                            "display": "MedicationRecord"
                        }
                    }
                ]
            },
            "request": {
                "method": "PUT",
                "url": "PlanDefinition/id1588173811358"
            }
        },
        {
            "fullUrl": "http://hapi.fhir.org/baseR4/ActivityDefinition/id1588174094857",
            "resource": {
                "resourceType": "ActivityDefinition",
                "id": "id1588174094857",
                "title": "Reporting Date"
            },
            "request": {
                "method": "PUT",
                "url": "ActivityDefinition/id1588174094857"
            }
        },
        {
            "fullUrl": "http://hapi.fhir.org/baseR4/ActivityDefinition/id1588174413468",
            "resource": {
                "resourceType": "ActivityDefinition",
                "id": "id1588174413468"
            },
            "request": {
                "method": "PUT",
                "url": "ActivityDefinition/id1588174413468"
            }
        },
        {
            "fullUrl": "http://hapi.fhir.org/baseR4/PlanDefinition/id1588174459273",
            "resource": {
                "resourceType": "PlanDefinition",
                "id": "id1588174459273",
                "name": "Tier 1 ALT/SGPT Abnormality",
                "title": "ALT/SGPT values are greater 400 IU or ALT/SGPT is elevated and/or GGT/ALT values > 500 IU tested daily",
                "action": [
                    {
                        "title": "Repeat ALT/SGPT Labs",
                        "definition[x]": {
                            "reference": "ActivityDefinition/id1588174413468",
                            "display": "ALT/SGPT Assessment"
                        },
                        "definitionCanonical": {
                            "reference": "ActivityDefinition/id1588174413468",
                            "display": "ALT/SGPT Assessment"
                        }
                    },
                    {
                        "title": "If ALT/SGPT results increase or don't decrease > 10%",
                        "definition[x]": {
                            "reference": "PlanDefinition/id1588173687606",
                            "display": "Early Termination"
                        },
                        "definitionCanonical": {
                            "reference": "PlanDefinition/id1588173687606",
                            "display": "Early Termination"
                        }
                    }
                ]
            },
            "request": {
                "method": "PUT",
                "url": "PlanDefinition/id1588174459273"
            }
        },
        {
            "fullUrl": "http://hapi.fhir.org/baseR4/PlanDefinition/id1588174525409",
            "resource": {
                "resourceType": "PlanDefinition",
                "id": "id1588174525409",
                "name": "Tier 2 Liver Function Lab Abnormality",
                "title": "ALT/SGPT greater than 120 IU retested weekly",
                "action": [
                    {
                        "title": "Repeat ALT/SGPT Lab Assessment",
                        "definition[x]": {
                            "reference": "ActivityDefinition/id1588174413468",
                            "display": "ALT/SGPT Assessment"
                        },
                        "definitionCanonical": {
                            "reference": "ActivityDefinition/id1588174413468",
                            "display": "ALT/SGPT Assessment"
                        }
                    }
                ]
            },
            "request": {
                "method": "PUT",
                "url": "PlanDefinition/id1588174525409"
            }
        },
        {
            "fullUrl": "http://hapi.fhir.org/baseR4/Procedure/id1588174750592",
            "resource": {
                "resourceType": "Procedure",
                "id": "id1588174750592",
                "instantiatesCanonical": [
                    {
                        "reference": "ActivityDefinition/id1588174413468",
                        "display": "ALT/SGPT Assessment"
                    }
                ],
                "partOf": [
                    {
                        "reference": "Procedure/id1588175423735",
                        "display": "Safety Labs"
                    }
                ]
            },
            "request": {
                "method": "PUT",
                "url": "Procedure/id1588174750592"
            }
        },
        {
            "fullUrl": "http://hapi.fhir.org/baseR4/PlanDefinition/id1588175143891",
            "resource": {
                "resourceType": "PlanDefinition",
                "id": "id1588175143891",
                "action": [
                    {
                        "definition[x]": {
                            "reference": "ActivityDefinition/id1588175316848",
                            "display": "Safety Labs"
                        },
                        "title": "Safety Labs",
                        "definitionCanonical": {
                            "reference": "ActivityDefinition/id1588175316848",
                            "display": "Safety Labs"
                        }
                    }
                ]
            },
            "request": {
                "method": "PUT",
                "url": "PlanDefinition/id1588175143891"
            }
        },
        {
            "fullUrl": "http://hapi.fhir.org/baseR4/ActivityDefinition/id1588175316848",
            "resource": {
                "resourceType": "ActivityDefinition",
                "id": "id1588175316848"
            },
            "request": {
                "method": "PUT",
                "url": "ActivityDefinition/id1588175316848"
            }
        },
        {
            "fullUrl": "http://hapi.fhir.org/baseR4/Procedure/id1588175423735",
            "resource": {
                "resourceType": "Procedure",
                "id": "id1588175423735",
                "instantiatesCanonical": [
                    {
                        "reference": "ActivityDefinition/id1588175316848",
                        "display": "Safety Labs"
                    }
                ]
            },
            "request": {
                "method": "PUT",
                "url": "Procedure/id1588175423735"
            }
        }
    ]
}